Svtotal,Ax,Ay,Az
1.157757734,-0.075904441,1.07838348,-0.414403857
0.996978973,-0.104644957,0.893903755,-0.428896938
0.884377282,-0.075904441,0.746270845,-0.468445853
0.824329696,0.004667263,0.642362825,-0.516592359
0.793330497,0.125279174,0.554421757,-0.553439175
0.822067025,0.227222032,0.565721447,-0.551474012
0.86530237,0.27094692,0.65931236,-0.490553943
0.902588761,0.261612393,0.76862458,-0.394260931
0.948364001,0.211255078,0.873515183,-0.302880827
0.984781201,0.158441309,0.943032843,-0.235328331
0.989826066,0.077869604,0.965877868,-0.201920551
0.959861308,0.008351945,0.937382997,-0.206342169
0.919218298,-0.064604751,0.882604064,-0.248593185
0.922588025,-0.102679794,0.873515183,-0.278561928
0.936665227,-0.128226919,0.88284971,-0.285440001
0.951096064,-0.110786093,0.91085329,-0.250312703
0.978851522,-0.087204131,0.953349951,-0.20413136
0.997865142,-0.073693632,0.981844822,-0.16212599
1.021498005,-0.076150086,1.010830984,-0.126016111
1.024105825,-0.076641377,1.015498247,-0.108083993
1.005078271,-0.069763305,0.997074839,-0.105627539
0.97333161,-0.059691842,0.965632223,-0.106610121
0.94612885,-0.054778933,0.938365579,-0.107838348
0.933705166,-0.06141136,0.925592016,-0.106364475
0.928191991,-0.072465405,0.919942171,-0.099977694
0.930306144,-0.076395732,0.922889917,-0.088923649
0.932599115,-0.07271105,0.925592016,-0.087941067
0.95450842,-0.065096041,0.947700106,-0.093345267
0.983258187,-0.042251016,0.978405786,-0.087941067
1.000398826,-0.030460035,0.996583548,-0.081799931
1.004882472,-0.013510499,1.001496457,-0.081308641
1.008905445,-0.020142926,1.004444202,-0.092608331
1.014005273,-0.028249226,1.008620175,-0.100468985
1.039768892,-0.031688262,1.03367601,-0.107838348
1.063452333,-0.035372943,1.057503617,-0.106610121
1.095551507,-0.048392152,1.089928815,-0.099732048
1.113622892,-0.05870926,1.107615287,-0.099486403
1.124004227,-0.080326059,1.116212877,-0.104890603
1.1208894,-0.092853976,1.111054323,-0.115453357
1.104472734,-0.092362685,1.092876561,-0.130192083
1.085666086,-0.065341687,1.076172671,-0.127489983
1.067377489,-0.007860654,1.058731845,-0.135350637
1.0742946,0.065096041,1.060697008,-0.157458727
1.130969478,0.122085783,1.101965442,-0.223291705
1.237619892,0.20953556,1.200223618,-0.217396214
1.366663454,0.300178727,1.323783274,-0.158932599
1.484625192,0.348816524,1.426708713,-0.216659278
1.51911261,0.328427953,1.451518902,-0.304845991
1.39812593,0.267507884,1.333854737,-0.322532462
1.196207766,0.215676696,1.121862723,-0.354712015
0.994659032,0.149352427,0.909133772,-0.374854941
0.837412581,0.080326059,0.750446818,-0.362818314
0.722896007,0.062393942,0.649240897,-0.311724063
0.756485422,0.075167505,0.693457076,-0.292809364
1.02175399,0.016458244,1.010094048,-0.153037109
0.900663786,0.013510499,0.895131982,-0.098749467
0.841026455,0.01670389,0.837405304,-0.076150086
0.830945617,0.026284062,0.829299004,-0.045198761
0.845787356,0.045444406,0.844529021,-0.007860654
0.854763891,0.047900861,0.853372257,-0.009088881
0.892214299,0.066324269,0.889727782,0.005649845
0.910382083,0.054287642,0.908642481,0.014738726
0.940565386,0.020879862,0.940085097,0.021616799
0.926778347,0.014738726,0.926328953,0.024810189
0.935302422,0.02800358,0.932715734,0.063622169
0.935519299,-0.000245645,0.93345267,0.062148296
0.922921137,-0.010808399,0.920679108,0.063376523
0.975612833,-0.003193391,0.974229813,0.051831188
1.071793588,0.018669053,1.071014117,0.036355525
1.092577289,0.037092461,1.091893979,0.010808399
1.095523389,0.049620379,1.094350433,-0.010317108
1.14918949,0.037092461,1.147901139,0.039794561
1.19412594,-0.03660117,1.192362964,-0.053550706
1.333832592,-0.064359105,1.32132682,-0.170477935
1.296736682,-0.050848606,1.27391725,-0.236802204
1.228547822,-0.013019208,1.1985041,-0.269718693
1.109648753,0.023336317,1.083296389,-0.239258658
1.04931273,0.002210809,1.028026165,-0.210272496
0.919409698,-0.054287642,0.895868918,-0.199464097
0.841877705,-0.145176455,0.784345889,-0.269227402
0.896873534,-0.075167505,0.832246749,-0.325725853
1.008649639,0.055515869,0.955806405,-0.317373908
1.075259257,0.118892393,1.040799728,-0.242452049
1.039372823,0.059691842,1.013778729,-0.221326541
0.945756189,-0.053796351,0.919205235,-0.215922341
0.904196338,-0.104890603,0.877199865,-0.192586025
0.847427422,-0.069763305,0.831018522,-0.150580654
0.832089327,-0.073939277,0.815542859,-0.147632909
0.845109068,-0.065341687,0.829544649,-0.147632909
0.876441827,-0.066078623,0.861969847,-0.144193873
0.946466555,-0.081554286,0.936646061,-0.10882093
0.980524197,-0.097275594,0.971282068,-0.092608331
1.000410528,-0.104644957,0.991179349,-0.086221549
1.007411025,-0.107592703,0.998057421,-0.084747677
1.004980496,-0.068289432,0.998303066,-0.093345267
1.02844972,-0.031442616,1.025324065,-0.073693632
1.051955852,-0.058217969,1.048169091,-0.067552496
1.029503378,-0.04740957,1.02556971,-0.076395732
1.028829613,-0.032916489,1.023358901,-0.10071463
1.105439032,-0.034144716,1.087472361,-0.19553377
1.264381915,-0.000982582,1.248861415,-0.197498933
1.41552357,0.100468985,1.404846269,-0.141491773
1.491016058,0.232626231,1.463309884,-0.166547608
1.532782704,0.225256868,1.500402345,-0.217887505
1.441087592,0.154265336,1.417619832,-0.208061687
1.202212899,0.081554286,1.183519728,-0.194796834
0.99177289,-0.000245645,0.969808195,-0.207570396
0.840496647,-0.056498451,0.805471396,-0.233363168
0.672452047,0.124542238,0.539928676,-0.380996077
1.062925075,0.197007643,0.959736732,-0.412193048
1.216883797,0.167038899,1.161411638,-0.322532462
1.219768428,0.080326059,1.203171363,-0.183742789
1.069037325,0.020142926,1.038588919,-0.252523512
0.874145269,-0.024318899,0.810629951,-0.326217144
0.888467499,0.109066575,0.864671947,-0.172688744
0.873659581,0.05870926,0.850915803,-0.189146988
0.866945993,0.033653425,0.833229331,-0.237047849
0.873839553,0.057481033,0.835685785,-0.24883883
0.932399874,0.120611911,0.894886336,-0.232380586
0.936322988,0.085484613,0.920924753,-0.145913391
0.857889293,0.08401074,0.829544649,-0.201920551
0.822355996,0.102679794,0.78532847,-0.221326541
0.805675326,0.122085783,0.762974735,-0.228204613
0.806570208,0.108575284,0.769852808,-0.214694114
0.810069499,0.042496661,0.780415562,-0.212974596
0.816667392,0.042251016,0.777467816,-0.246382376
0.891424184,0.006632427,0.811121241,-0.369696387
1.083033583,0.030460035,0.892921173,-0.612148435
1.272854672,-0.054778933,1.021393738,-0.757570536
1.179115152,-0.009825818,0.938611225,-0.713600002
0.956488994,0.054778933,0.705002412,-0.644082343
0.975710056,0.113733839,0.568423547,-0.784837179
1.035506368,0.152791463,0.528628986,-0.877199865
1.100768708,0.240978176,0.428160001,-0.985038213
0.981998331,0.148615491,0.4524789,-0.858776457
0.911740706,0.132648537,0.501607988,-0.749709882
0.911124102,0.175636489,0.502590569,-0.739392773
0.969737791,0.219115732,0.516838005,-0.79073267
0.99795781,0.199464097,0.520031396,-0.828070777
1.024578766,0.185707952,0.454444063,-0.899307954
0.995391513,0.215922341,0.378048332,-0.895131982
0.971644598,0.253506094,0.299933082,-0.8887452
1.07971309,0.273403374,0.338990707,-0.987985958
1.14740785,0.268981756,0.404332394,-1.0395715
1.169826257,0.322532462,0.42447532,-1.041291018
1.102942334,0.427423065,0.300670018,-0.971282068
1.073392349,0.438722755,0.265297075,-0.943032843
1.027138523,0.398928194,0.256453839,-0.911098935
1.227914058,0.462304717,0.294528882,-1.098772051
1.169152018,0.476797798,0.219361378,-1.044730055
1.107757904,0.465252463,0.168021481,-0.991179349
1.031712776,0.42177322,0.150089364,-0.929522343
0.972528661,0.316636972,0.197498933,-0.898079727
1.073272519,0.347588297,0.220589605,-0.991179349
1.137109854,0.393278349,0.20683346,-1.046695218
1.156979955,0.429633874,0.154019691,-1.063153463
1.129667292,0.444863891,0.108575284,-1.032693428
1.080632316,0.556386921,0.104890603,-0.920433462
1.114772457,0.598392291,0.056498451,-0.93885687
1.063940083,0.590040346,0.02210809,-0.885060519
1.050390556,0.586846955,0.024810189,-0.870813083
1.040279115,0.558843375,0.028740516,-0.876954219
1.045725475,0.522242205,0.022845026,-0.905694736
1.087419202,0.508977351,-0.030214389,-0.960473669
1.121941814,0.480236834,-0.156967436,-1.001742103
1.145918204,0.518066232,-0.181286334,-1.005918075
1.208230486,0.715073875,-0.150580654,-0.962193187
1.44531316,0.839861758,-0.23483704,-1.152568403
1.368845563,0.787539279,-0.243188985,-1.092876561
1.296689985,0.72391711,-0.207816042,-1.055538454
1.264700148,0.731040828,-0.168267126,-1.018200347
1.264343043,0.731286474,-0.240486885,-1.00297033
1.287002006,0.704511121,-0.392541412,-1.00297033
1.310918022,0.728338728,-0.413175629,-1.008620175
1.285359779,0.711143548,-0.412684338,-0.987985958
1.197504184,0.652925578,-0.357905405,-0.937874288
1.268913207,0.718512911,-0.36036186,-0.981844822
1.28641646,0.756096663,-0.356185887,-0.977914495
1.238522699,0.740129709,-0.350781688,-0.929031052
1.210818641,0.723180174,-0.381241722,-0.893166818
1.223591398,0.703282894,-0.468691499,-0.884814873
1.176755934,0.657101551,-0.455917936,-0.863198075
1.144686926,0.62000909,-0.433564201,-0.859022102
1.141024468,0.610920208,-0.423001447,-0.865900175
1.205512397,0.714828229,-0.453461481,-0.858285166
1.187982235,0.701563375,-0.454198418,-0.844283376
1.185375196,0.693948367,-0.455426645,-0.846248539
1.188652469,0.696159176,-0.457391809,-0.847968057
1.190991186,0.700826439,-0.447565991,-0.852635321
1.169651562,0.674542377,-0.433318555,-0.851652739
1.15489325,0.648258315,-0.43577501,-0.850670157
1.133350558,0.611165854,-0.431353392,-0.851407094
1.127050055,0.605024718,-0.436511946,-0.844774667
1.127970317,0.610428917,-0.43037081,-0.845265958
1.165709625,0.650223479,-0.437494528,-0.862952429
1.209720916,0.689035458,-0.441916146,-0.890710364
1.248943431,0.721951947,-0.436511946,-0.920924753
1.293460798,0.76272909,-0.446829055,-0.94426107
1.276729547,0.753640209,-0.43037081,-0.936400416
1.234924321,0.718758556,-0.400402067,-0.920924753
1.194748157,0.688789813,-0.364292187,-0.905694736
1.193124682,0.693457076,-0.341447161,-0.908888126
1.226587772,0.733497283,-0.341447161,-0.921907335
1.264401029,0.763466026,-0.355694597,-0.943032843
1.27461603,0.770344099,-0.367976868,-0.946471879
1.282810677,0.761746508,-0.377311395,-0.960719314
1.283973016,0.761746508,-0.37436365,-0.963421414
1.297747763,0.770589744,-0.373872359,-0.97496675
1.271407095,0.761009572,-0.330393116,-0.963421414
1.307234329,0.764448608,-0.294528882,-1.018691638
1.29916822,0.755605372,-0.301898245,-1.012796147
1.223843299,0.719741138,-0.288142101,-0.94696317
1.206420299,0.705248057,-0.233117522,-0.950647851
1.223680261,0.710160966,-0.207324751,-0.974721104
1.258810984,0.722443238,-0.157950018,-1.018691638
1.186697279,0.675279313,-0.152054527,-0.963912705
1.160874424,0.661031878,-0.162617281,-0.940330743
1.159526125,0.660049296,-0.131174665,-0.94426107
1.175622067,0.666436078,-0.101205921,-0.963175769
1.186457835,0.660540587,-0.070254596,-0.983073049
1.194277552,0.672331568,-0.054778933,-0.985529504
1.172659975,0.635730398,-0.026038417,-0.985038213
1.155555913,0.61190279,0.041022788,-0.979388368
1.126734181,0.600848745,0.122577074,-0.945243652
1.080257877,0.570634356,0.171706162,-0.901027472
1.060639122,0.556141275,0.174899553,-0.886043101
1.075339279,0.551474012,0.193077316,-0.90274699
1.082382297,0.533541895,0.195779415,-0.921170398
1.06298014,0.505047024,0.189146988,-0.916011844
1.086271853,0.497923306,0.214448469,-0.941313324
1.061406429,0.476306507,0.220098314,-0.922644271
1.077356484,0.467708917,0.25424303,-0.936646061
1.114075218,0.465989399,0.32154988,-0.959491087
1.132455556,0.474586989,0.353238142,-0.965632223
1.113372285,0.43037081,0.456163581,-0.919942171
1.129870252,0.426931774,0.477534735,-0.930750571
1.137481095,0.414158211,0.510942514,-0.928048471
1.099500481,0.389102376,0.512662032,-0.8914473
1.044402226,0.331866989,0.521505268,-0.841826921
0.996305713,0.278561928,0.54189384,-0.788276216
0.992249292,0.240486885,0.597409709,-0.754868436
0.999698384,0.233854458,0.625658935,-0.743814391
