Svtotal,Ax,Ay,Az
0.938136657,-0.124787883,0.923381207,0.109066575
0.920773055,-0.084256386,0.91355539,0.078360895
0.956013613,-0.033162134,0.954578178,0.040531498
1.018492354,0.003439036,1.018445993,0.009088881
1.052507237,0.036846816,1.051853772,0.004175972
1.071654406,0.058954905,1.070031535,0
1.094211584,0.065832978,1.092139624,-0.01400179
1.118346505,0.079097832,1.115230296,-0.026529707
1.123982645,0.076150086,1.120880141,-0.034144716
1.126344183,0.076887023,1.123336595,-0.029231807
1.10069355,0.066324269,1.098526406,-0.019160344
1.088394957,0.029477453,1.087963652,-0.008351945
1.088757592,-0.010808399,1.088700588,-0.0027021
1.15227492,-0.072956696,1.148146785,-0.064604751
1.252000827,-0.121348847,1.242474633,-0.095064785
1.290451598,-0.130683374,1.281286613,-0.080571704
1.313207953,-0.120857556,1.302657766,-0.113979484
1.350406821,-0.08401074,1.334591673,-0.188164407
1.343298088,-0.040040207,1.319116011,-0.250558348
1.317567627,0.018423408,1.286199522,-0.285194355
1.265965202,0.068289432,1.226016389,-0.308039381
1.212999917,0.106855766,1.166324547,-0.31565439
1.142145265,0.110540448,1.088454943,-0.327936662
1.027594448,0.094082203,0.970299486,-0.324988917
0.938527518,0.075658795,0.879901965,-0.317619553
0.866068835,0.04200537,0.810384305,-0.302635182
0.808500497,0.005158554,0.750692463,-0.300178727
0.775272302,-0.027512289,0.708441448,-0.313689226
0.779196511,-0.024564544,0.700089503,-0.341201516
0.819765648,0.012282272,0.729566956,-0.373626714
0.871315836,0.063867814,0.775257007,-0.392541412
0.929191273,0.112259966,0.834457558,-0.393032703
0.989137109,0.155984854,0.906186027,-0.364537832
1.045216814,0.164091154,0.985529504,-0.307056799
1.094450562,0.14272,1.059714426,-0.233363168
1.145420768,0.112505611,1.126038695,-0.177110362
1.187859131,0.060674424,1.177869883,-0.141246128
1.201542672,0.013756145,1.193591191,-0.137315801
1.14797749,-0.027757935,1.13709274,-0.155247918
1.076923559,-0.042496661,1.060451363,-0.182760207
0.984782365,-0.040777143,0.963912705,-0.197498933
0.911004222,-0.0054042,0.8914473,-0.187673116
0.883488608,0.035372943,0.864426302,-0.179075525
0.885537909,0.071237177,0.867374047,-0.163599863
0.885970262,0.098749467,0.869830502,-0.136333219
0.901559458,0.09481914,0.887271328,-0.12871821
0.912290851,0.027757935,0.905203445,-0.110049157
0.905901282,-0.004912909,0.900781827,-0.096047367
0.907911859,-0.035618589,0.90274699,-0.089906231
0.937601388,-0.049866024,0.932715734,-0.081554286
0.993049968,-0.050357315,0.990933703,-0.040777143
0.987112712,-0.062393942,0.984546922,-0.034144716
0.991440119,-0.056498451,0.989214185,-0.034881652
1.031792959,-0.024564544,1.031219555,-0.024073253
1.038425123,-0.037583752,1.037606337,-0.016949535
1.037919889,-0.03660117,1.037115046,-0.018177763
1.058425,-0.021371153,1.057749263,-0.031196971
1.140300127,-0.019651635,1.129477731,-0.155493563
1.312906763,0.045690052,1.307570675,-0.109066575
1.406066128,0.176619071,1.372421071,-0.249575767
1.270822318,0.185216661,1.212997181,-0.330638762
1.079098049,0.187181825,1.008620175,-0.334814734
0.751796614,0.149843718,0.65661026,-0.334077798
0.835823327,0.179321171,0.732760346,-0.359870569
0.950868399,0.200201033,0.861724202,-0.348570879
1.117000406,-0.062639587,1.10638706,-0.140263546
0.93031983,-0.151317591,0.8995536,-0.182760207
0.844536381,-0.138298382,0.808419142,-0.20142926
0.79253503,-0.108083993,0.760518281,-0.195042479
0.885770921,-0.007123718,0.884323582,-0.05011167
0.934727798,-0.000736936,0.934680898,-0.009334527
0.885149214,-0.024318899,0.884077937,-0.03610988
0.914513855,-0.018423408,0.914292326,-0.0081063
1.000359498,-0.021371153,1.000022585,0.014738726
1.053002006,-0.014738726,1.052345063,0.034144716
1.103057601,-0.010071463,1.101474151,0.058217969
1.108327125,-0.010071463,1.106632705,0.060428778
1.058140478,-0.017932117,1.05627539,0.060183133
1.03894103,-0.04200537,1.0368694,0.050357315
1.023852726,-0.082782513,1.020411156,0.013510499
1.023261753,-0.066569914,1.020411156,-0.037338107
1.087641614,-0.123068365,1.080348643,-0.025792771
1.131633566,-0.161880345,1.111545614,-0.137315801
1.209645569,-0.176373426,1.17639601,-0.219607023
1.226099884,-0.1481242,1.183765373,-0.282983546
1.215166502,-0.15942389,1.169026647,-0.2908442
1.069140869,-0.27364902,1.016480829,-0.18693618
0.990391753,-0.309021963,0.920924753,-0.193077316
0.834941369,-0.161143408,0.77943298,-0.252277866
0.88307062,-0.062393942,0.843300794,-0.254488675
1.00569883,0.041268434,0.981107886,-0.217150569
0.994344946,-0.038811979,0.97816014,-0.174408262
0.96486358,-0.108083993,0.941067679,-0.183497143
0.927279681,-0.166793253,0.887762619,-0.20953556
0.903612885,-0.217396214,0.844774667,-0.235819622
0.900675511,-0.236556558,0.829053359,-0.260629811
0.901017862,-0.22894155,0.831018522,-0.262349329
0.915168165,-0.211009433,0.852635321,-0.25694513
0.93016668,-0.115944647,0.907168608,-0.169740999
0.893682484,-0.088678004,0.872778247,-0.170477935
0.901925024,-0.09801253,0.883341001,-0.1535284
0.998753395,-0.145913391,0.980125304,-0.124787883
1.016089668,-0.145913391,0.998794357,-0.116435938
1.031793456,-0.164091154,1.013041793,-0.106855766
1.041620319,-0.169004062,1.02237632,-0.105627539
1.051419673,-0.169249708,1.033184719,-0.096784303
1.050679532,-0.169986644,1.032693428,-0.092608331
1.042352131,-0.155493563,1.027534874,-0.080571704
1.039528691,-0.153774045,1.024832774,-0.081799931
1.045358303,-0.150580654,1.031465201,-0.078606541
1.055379147,-0.145913391,1.043010536,-0.068289432
1.044395841,-0.139035319,1.033921655,-0.049374733
1.038292423,-0.154019691,1.02556971,-0.050357315
0.984662536,-0.154510981,0.970299486,-0.064850396
0.992830707,-0.167775835,0.974229813,-0.091871394
1.212889252,-0.118401102,1.195310709,-0.168267126
1.026172762,-0.095556076,0.994127094,-0.235819622
0.733408842,-0.088923649,0.66790995,-0.289615973
0.66914972,-0.047163924,0.597409709,-0.297722273
0.688111457,-0.029477453,0.614359244,-0.308530672
0.815531243,-0.012036627,0.750938109,-0.317865199
1.048829857,-0.034881652,1.045958282,-0.069272014
1.137045218,-0.158195663,1.12579305,0.020879862
0.884691906,-0.221817832,0.845511603,-0.136333219
0.836969564,-0.141246128,0.81333205,-0.138052737
1.034251493,-0.077623959,1.03097391,-0.027266644
0.95909949,-0.1535284,0.945243652,-0.053059415
0.891087932,-0.152791463,0.871058729,-0.109312221
0.833203441,-0.05330506,0.821929641,-0.125770465
0.851080803,-0.026284062,0.841581276,-0.124050947
0.908593337,-0.005895491,0.901764409,-0.111031739
1.048807246,0.021862444,1.044238764,-0.095310431
1.04473456,0.053059415,1.037115046,-0.114225129
1.001583939,0.045444406,0.994372739,-0.111031739
0.986134156,0.021616799,0.979142722,-0.115207711
0.945877023,0.026284062,0.937628643,-0.121840138
0.934347038,0.05600716,0.924609435,-0.122331429
0.927027258,0.08401074,0.914537972,-0.126261756
0.933378586,0.118401102,0.921170398,-0.092853976
0.947825372,0.091625749,0.940085097,-0.078852186
0.967448111,0.068535078,0.962438832,-0.070500241
1.011573945,0.060428778,1.007883239,-0.061657005
1.012613908,0.017195181,1.011076629,-0.053059415
1.012809791,0.003193391,1.011322275,-0.054778933
1.018343724,0.011790981,1.016480829,-0.060428778
1.062672875,-0.020634217,1.046203927,-0.185216661
1.084581616,-0.010562754,1.075927025,-0.136333219
1.236059099,-0.199218452,1.190152155,-0.267753529
1.288513736,-0.209781205,1.241737697,-0.272666438
0.963315872,-0.146650327,0.907905545,-0.286668228
0.901680527,-0.226485095,0.812349469,-0.319093426
0.938684575,-0.189883925,0.838387885,-0.37706575
1.009506317,-0.141491773,0.899307954,-0.436266301
1.092495879,-0.060428778,0.98086224,-0.477289089
1.192388773,0.077623959,1.101474151,-0.450022445
1.169497222,0.081062995,1.102211087,-0.382469949
1.071994137,0.007369363,1.023604547,-0.31835649
0.919857716,-0.104153666,0.836914013,-0.367239932
0.886819435,-0.109066575,0.783854598,-0.400156421
0.943080032,-0.069763305,0.86614582,-0.366502996
0.960301544,-0.068780723,0.88555181,-0.365029123
0.968069479,-0.065096041,0.891201655,-0.372398486
0.963233811,-0.06411346,0.878919383,-0.388856731
0.939053038,-0.051094251,0.842563858,-0.411456111
0.958191859,-0.047900861,0.859759039,-0.420299347
1.020395722,-0.070745887,0.917485717,-0.440933564
1.047921862,-0.089169295,0.94426107,-0.445600827
1.00569229,-0.102188503,0.8914473,-0.454198418
0.994869368,-0.107101412,0.876462928,-0.45837439
0.985857935,-0.132894183,0.861724202,-0.460093908
0.994533355,-0.129946438,0.869339211,-0.465252463
1.011612211,-0.129700792,0.886534391,-0.46967408
0.999092579,-0.146650327,0.88555181,-0.438722755
0.914223652,-0.19823587,0.804488815,-0.386400276
0.872266237,-0.178584235,0.769361517,-0.370187677
0.823764647,-0.128963856,0.729812601,-0.359624924
0.822788437,0.184725371,0.771817971,-0.217150569
0.766705223,0.180058107,0.707458866,-0.234345749
0.728321371,0.107592703,0.614359244,-0.376083168
0.882010877,0.188901343,0.680683513,-0.528137695
0.973077863,0.274140311,0.732269055,-0.579231947
1.046656592,0.343903615,0.794417352,-0.588320828
1.093558623,0.385417695,0.854109193,-0.563756284
1.122087422,0.392787058,0.930504925,-0.488834425
1.108992448,0.396226094,0.920924753,-0.474095698
1.067261817,0.389593667,0.828807713,-0.548034976
1.137905324,0.43037081,0.809893014,-0.673559795
1.001106464,0.379522204,0.741603582,-0.555158693
0.968923082,0.356677178,0.722443238,-0.538209158
1.005073858,0.303863409,0.709669675,-0.643591052
1.069528932,0.315163099,0.720969365,-0.724408401
1.087702279,0.324743271,0.702054666,-0.764694253
0.954921205,0.294037591,0.65120606,-0.633519589
0.820504087,0.251295285,0.601585682,-0.498168951
0.819982728,0.235328331,0.583653564,-0.525681241
0.889667318,0.244171567,0.586355664,-0.622956835
1.003221359,0.278316283,0.553930466,-0.788767506
0.897186836,0.268981756,0.476306507,-0.711143548
0.91908828,0.288387746,0.496695079,-0.717530329
0.970930031,0.309513254,0.52248785,-0.757570536
1.096879066,0.32105859,0.545824167,-0.895623273
1.160403369,0.360607505,0.520768332,-0.97226465
1.1684321,0.322286817,0.554913048,-0.976440622
1.183681416,0.299933082,0.602076972,-0.973984168
1.190755975,0.279053219,0.644327988,-0.961701896
1.123430058,0.204377006,0.658084133,-0.887271328
1.12698685,0.210518142,0.64850396,-0.897342791
1.168401346,0.264560138,0.590285991,-0.973001586
1.120413974,0.216904923,0.555649984,-0.948437042
1.111060026,0.194796834,0.577021138,-0.929276698
1.128570701,0.213465887,0.596918418,-0.933698316
1.105284324,0.196025061,0.580460174,-0.919942171
1.091068392,0.18423408,0.56179112,-0.916994426
1.110868268,0.188901343,0.551719657,-0.945489297
1.128983527,0.211009433,0.552456594,-0.961701896
1.133548148,0.235082686,0.549508848,-0.963175769
1.12438111,0.238767367,0.564247575,-0.942787197
1.106416238,0.227467677,0.580460174,-0.914046681
1.091151706,0.201674906,0.604042136,-0.886043101
1.139155691,0.122085783,0.625413289,-0.94426107
1.129062146,0.126998692,0.591022928,-0.953595596
1.055871112,0.20093797,0.475323926,-0.921170398
1.054009709,0.088923649,0.520277041,-0.912327163
1.059657199,-0.013756145,0.598637936,-0.874252119
1.064803166,-0.052322479,0.684368195,-0.814068987
1.083506392,0.0054042,0.735462446,-0.795645579
1.202038117,0.101697212,0.823894804,-0.869339211
1.380860416,0.218624441,0.895623273,-1.028026165
1.408523796,0.212728951,0.987740313,-0.981353531
1.375851401,0.269718693,1.071014117,-0.820455768
1.363968705,0.267262238,1.114739005,-0.739147128
0.95030379,-0.034144716,0.395980449,-0.863198075
1.049418507,-0.154756627,0.208798624,-1.016726474
1.192332979,0.069517659,1.012304857,-0.626150225
1.39968474,0.074430568,1.219383962,-0.683139967
1.301010372,-0.01129969,1.066838144,-0.744551327
1.142493058,-0.033162134,0.9022557,-0.700089503
0.893833683,-0.085975904,0.650469124,-0.606989881
1.044909696,0.031933907,0.950402206,-0.43307291
1.060711828,0.06730685,0.973984168,-0.414649502
1.116162007,0.070500241,1.060942654,-0.339481998
1.141809945,0.078606541,1.094350433,-0.316145681
1.217027517,0.067061205,1.171728747,-0.322041171
1.256392258,0.069272014,1.21250589,-0.321795526
1.275576999,0.07541315,1.231174943,-0.324988917
1.326494153,-0.107838348,1.314694393,-0.139772255
1.357928212,-0.091380104,1.350312981,-0.110786093
1.085103133,0.1454221,1.068803308,-0.118155456
0.88575665,0.164336799,0.86614582,-0.085730258
0.842506061,0.144930809,0.827579486,-0.062639587
0.814689646,0.113733839,0.806699624,-0.004421618
0.829527919,0.096047367,0.823403513,0.029968744
0.856512001,0.093590912,0.848459348,0.070500241
1.169207422,0.062639587,1.085507198,0.429879519
1.126710617,-0.018177763,1.044730055,0.421527574
1.092876864,-0.082045577,1.015498247,0.395489158
1.034481574,-0.124787883,0.95826286,0.369205096
1.024982229,-0.092608331,0.949665269,0.37436365
0.994268541,-0.084747677,0.912081517,0.386645922
0.957585348,-0.10341673,0.867619693,0.391804476
0.980789122,-0.088923649,0.896114564,0.388611085
0.866012746,-0.101205921,0.817016732,0.268736111
0.853801251,-0.078606541,0.824631741,0.20683346
0.883027194,-0.089906231,0.849196285,0.224765577
0.894015129,-0.149843718,0.850915803,0.229678486
0.865620721,-0.116435938,0.837896594,0.183497143
0.871634655,-0.089169295,0.850915803,0.166547608
0.896647075,-0.073693632,0.875234701,0.180303753
1.090049777,-0.01400179,1.038834564,0.329901825
1.032151072,-0.047655215,0.979142722,0.323023753
1.018558144,-0.070500241,0.958508505,0.337271189
1.025158326,-0.080571704,0.958999796,0.353238142
1.038822308,-0.087695422,0.965140932,0.374118004
1.055718628,-0.096047367,0.976686268,0.389102376
1.059203367,-0.084747677,0.983809986,0.383206886
1.052284998,-0.065096041,0.987494667,0.35765976
1.027277921,-0.050357315,0.976440622,0.315163099
1.003427795,-0.042251016,0.950647851,0.31835649
0.948280041,-0.043233597,0.878673737,0.353975078
0.931722304,-0.071974114,0.856811293,0.358887987
0.968818669,-0.084502031,0.884077937,0.387137213
0.995603906,-0.078360895,0.913064099,0.389102376
1.015111196,-0.065587332,0.938611225,0.380996077
