Svtotal,Ax,Ay,Az
1.0341432,-0.29870485,0.93173315,-0.33481473
1.0576401,-0.34414926,0.9265746,-0.37632881
1.08811065,-0.3583967,0.96538658,-0.35151862
1.04251117,-0.30877632,0.95850851,-0.26971869
0.97603023,-0.22083525,0.93811993,-0.15426534
0.94090403,-0.21125508,0.90790554,-0.12798127
0.93276286,-0.25276916,0.88800826,-0.13264854
0.93465317,-0.29502017,0.87498906,-0.14468516
0.96603882,-0.40433239,0.85214403,-0.20879862
0.97718781,-0.46279601,0.83814224,-0.19553377
0.97276521,-0.46304165,0.83347498,-0.19283167
0.97075118,-0.46230472,0.83396627,-0.18202327
0.99792721,-0.48686926,0.85410919,-0.17121487
1.02884668,-0.51782059,0.87277825,-0.16924971
1.03129913,-0.53648964,0.86516324,-0.16507374
1.03098295,-0.5411569,0.8590221,-0.17932117
1.03894995,-0.56179112,0.85410919,-0.18521666
1.04927662,-0.59618148,0.8428095,-0.18767312
1.07392239,-0.63204572,0.84575725,-0.19627071
1.10712124,-0.69370272,0.82684255,-0.24662802
1.08803764,-0.71384565,0.77427443,-0.27340337
1.05947063,-0.71531952,0.7352168,-0.26505143
1.03155216,-0.70328289,0.70893274,-0.25866465
0.98212491,-0.66447091,0.68436819,-0.23385446
0.91032826,-0.51782059,0.74307745,-0.09162575
0.9306729,-0.55368482,0.73619938,-0.13264854
0.94564223,-0.56301935,0.7514294,-0.11225997
0.99307649,-0.63351959,0.76150086,-0.07050024
0.98829394,-0.62271119,0.76518554,-0.05870926
0.95460934,-0.56965177,0.7649399,-0.0405315
0.95123842,-0.57210823,0.75978134,-0.01670389
0.93359998,-0.56252806,0.74504262,-0.00908888
0.92775014,-0.55614128,0.74234052,-0.0189147
0.94346977,-0.55614128,0.76199215,0.01449308
0.92121196,-0.54091126,0.74504262,0.03095133
0.92421758,-0.55343918,0.73914713,0.03930327
0.92891894,-0.56351064,0.73693632,0.04765522
0.94953017,-0.59888358,0.73497116,0.05256812
0.95202875,-0.61509618,0.72489969,0.05035732
0.90957047,-0.61485054,0.66987511,0.02333632
0.9546997,-0.64015202,0.70721322,0.03881198
0.97066975,-0.65071477,0.71924985,0.03807504
1.01057811,-0.6649622,0.75757054,0.07197411
1.1167726,-0.66447091,0.89169295,0.10267979
1.3645024,-0.72612792,1.15428792,-0.04716392
1.42068768,-0.68829852,1.23952689,-0.09039752
1.52908369,-0.63008055,1.38544028,-0.14714162
1.57079887,-0.56301935,1.44439518,-0.25326045
1.24078819,-0.32474327,1.18671312,-0.16065212
1.05338241,-0.23925866,1.02483277,-0.04569005
0.91550299,-0.21764186,0.88678004,0.06632427
0.92509841,-0.27438596,0.87695422,-0.10710141
0.97211237,-0.26971869,0.90962506,-0.21174637
1.00116924,-0.25989288,0.93050493,-0.26259497
1.05895891,-0.24343463,0.98209047,-0.312461
1.07871888,-0.22083525,1.00911147,-0.31074148
1.06843684,-0.16802148,1.02041116,-0.26849047
1.02419983,-0.1373158,0.99019677,-0.22280041
0.99366714,-0.19012957,0.95580641,-0.1940599
0.97231343,-0.25350609,0.92215298,-0.17539084
0.95294668,-0.31123277,0.88039326,-0.19012957
0.88565292,-0.26750788,0.81456028,-0.22206348
0.89672154,-0.23803043,0.82315787,-0.26431449
1.05710069,-0.3205673,0.93885687,-0.36502912
1.04623259,-0.36478348,0.92288992,-0.3313757
1.02711212,-0.37976785,0.90078183,-0.3151631
1.00125051,-0.37485494,0.8752347,-0.3097589
0.99047428,-0.36576606,0.8671284,-0.30877632
0.9685724,-0.34021893,0.84968758,-0.31688262
0.97427224,-0.3259715,0.85951339,-0.32277811
0.98817961,-0.33309522,0.87228696,-0.32351504
0.99746526,-0.33186699,0.87474341,-0.34586878
1.00066995,-0.33039312,0.86909357,-0.36994203
1.01165599,-0.35716847,0.86590017,-0.3822243
0.99959915,-0.35790541,0.85877646,-0.36552041
0.98630783,-0.37215284,0.8617242,-0.30288083
0.98951112,-0.3746093,0.86467195,-0.30189825
1.00866181,-0.39647174,0.86368937,-0.33800812
1.00770661,-0.40040207,0.85288097,-0.35741411
0.9994193,-0.40506933,0.83937047,-0.36085315
0.99993352,-0.4119474,0.83715966,-0.35962492
1.00216539,-0.41907112,0.83838789,-0.35471201
0.99953987,-0.42865129,0.83224675,-0.3502904
1.01406523,-0.4470747,0.82684255,-0.38050479
0.98465987,-0.4443726,0.79343477,-0.37755704
0.98995225,-0.44216179,0.79982155,-0.38050479
0.98645037,-0.43798582,0.80620833,-0.36232702
1.00527604,-0.44781164,0.82070141,-0.36945074
1.0137845,-0.45419842,0.81775367,-0.39082189
1.00515665,-0.46476117,0.79097832,-0.41071917
1.01210524,-0.45837439,0.78410024,-0.44658341
1.04353204,-0.44633776,0.82684255,-0.45395277
1.06079226,-0.39450658,0.88579746,-0.43012516
1.0989788,-0.35544895,0.93713735,-0.45075938
1.10781782,-0.33309522,0.99977694,-0.34169281
1.1172721,-0.33481473,1.0152526,-0.32474327
1.20005239,-0.35864234,1.09754382,-0.32695408
1.21756652,-0.37166155,1.10589577,-0.34832523
1.15259775,-0.33727119,1.04792345,-0.34144716
1.12385283,-0.33113005,1.02802616,-0.31074148
0.9926717,-0.27610547,0.93910252,-0.16507374
0.98136561,-0.26161239,0.93640042,-0.13338547
0.96968169,-0.24343463,0.93075057,-0.12134885
0.91958137,-0.23704785,0.88456923,-0.08351945
0.93272563,-0.34267539,0.86295243,-0.088678
0.98353912,-0.40310417,0.89095601,-0.10513625
1.01016325,-0.41268434,0.91650314,-0.10071463
0.95965088,-0.35544895,0.87891938,-0.14861549
0.95456443,-0.32130423,0.88653439,-0.14836985
0.94839263,-0.33456909,0.87425212,-0.15230017
0.94715412,-0.36281831,0.86786534,-0.11078609
0.96422531,-0.39524351,0.87695422,-0.06681556
0.99288425,-0.45370713,0.88309536,0.01056275
0.95631423,-0.46230472,0.83691401,0.01965164
0.93130549,-0.44019663,0.82070141,-0.00245645
0.88590859,-0.3746093,0.79957591,-0.07197411
0.89456238,-0.455181,0.76960716,-0.02751229
0.90657163,-0.4794999,0.76739635,-0.05527022
1.2193296,-0.93025928,0.77648523,0.13584193
1.14274546,-0.85877646,0.73841019,-0.15205453
0.8445531,-0.29919615,0.62320248,-0.48514974
0.73532456,-0.0135105,0.65071477,-0.3421841
0.74151737,-0.09531043,0.72784744,-0.1048906
0.88421805,-0.32302375,0.82266658,0.02677535
0.9671021,-0.4686915,0.8428095,0.07271105
0.99977932,-0.57603856,0.81431463,0.06804379
1.05082,-0.66299704,0.81505157,-0.01866905
1.05018516,-0.67822706,0.7919609,-0.12527917
0.99653199,-0.6330283,0.75069246,-0.169741
1.01837744,-0.64678444,0.77820475,-0.11471642
0.98725098,-0.65096041,0.72735615,-0.14787855
0.97136991,-0.66324269,0.68780723,-0.17489955
0.92849564,-0.66324269,0.61927215,-0.196762
0.92220156,-0.67675319,0.59691842,-0.19012957
0.91069882,-0.68731594,0.57137129,-0.17465391
0.88291959,-0.6654535,0.5546674,-0.17047794
0.8648293,-0.60379649,0.59225115,-0.1805494
0.89860422,-0.5492632,0.68878981,-0.17711036
1.72132112,-0.58537308,1.60406472,-0.21739621
1.49397172,-0.16531938,1.45372971,-0.30214389
0.86154681,-0.04888344,0.85828517,0.0567441
0.89717658,-0.15745873,0.85410919,-0.22501122
0.98138784,-0.14345694,0.89390375,-0.37878527
1.11688733,-0.41857983,0.99437274,-0.28887904
1.06694023,-0.3692051,0.93910252,-0.34660572
0.99511723,-0.28961597,0.8482137,-0.43233597
0.96680428,-0.24613673,0.81652544,-0.45542664
0.90329764,-0.27438596,0.76862458,-0.38713721
0.91003765,-0.29502017,0.77746782,-0.36969639
0.91826606,-0.31319794,0.77967863,-0.37043332
0.9579473,-0.34439491,0.80571704,-0.38713721
1.00047615,-0.38983931,0.82782513,-0.40457804
1.02360505,-0.41538644,0.83028159,-0.43110775
1.05935159,-0.35987057,0.83273804,-0.54705239
1.10710495,-0.39720868,0.86123291,-0.57112565
1.20075521,-0.41317563,0.92362685,-0.6465388
1.11764116,-0.30730244,0.91601184,-0.56179112
1.13967606,-0.22697639,0.93861122,-0.60527036
1.10631078,-0.15647615,0.91257281,-0.60551601
1.05803087,-0.13510499,0.85214403,-0.61239408
1.1609052,-0.07909783,0.84993322,-0.78680234
1.15719544,-0.06509604,0.8617242,-0.76960716
0.96236303,-0.01498437,0.66889253,-0.69173756
0.51354287,0.10022334,0.08204558,-0.49694072
0.93533378,-0.31737391,-0.8320011,-0.28617694
0.75253716,-0.47925425,-0.51560978,-0.26603401
0.74576653,0.21076379,-0.68805288,-0.19577942
0.73409865,0.2395043,-0.65685591,-0.223783
1.50054947,-1.34269797,0.53059415,-0.40899966
2.30209055,-2.0818451,0.89390375,-0.40801708
2.18037696,-1.68389949,1.16828971,-0.74406004
2.63684189,-1.68389949,1.54584675,-1.31444875
2.81108047,-1.94109026,1.47927684,-1.39502045
1.62531789,-1.23485962,0.67503367,-0.81308641
0.89850299,-0.85312661,-0.27389467,-0.06681556
1.00390507,-0.8347032,-0.45763745,0.31884778
0.95709368,-0.8243861,-0.21911573,0.43405549
0.76155562,-0.70500241,0.02186244,0.28715952
0.83283876,-0.76150086,0.17882988,0.28593129
1.13773713,-1.08305074,0.33456909,0.09752124
1.3267065,-1.30560551,0.12355966,-0.20069232
1.32034865,-1.30806197,0.04618134,-0.17367133
1.05491132,-1.05406458,0.04004021,-0.0135105
1.09772461,-1.07347057,-0.15991518,-0.16458244
1.24841104,-1.23608785,-0.11496207,-0.1319116
1.28374043,-1.25672207,-0.0486378,-0.25743642
1.37989707,-1.25917852,0.07197411,-0.55982596
1.42417621,-1.21766444,0.01793212,-0.73841019
1.5502023,-0.90151876,0.23360881,-1.23928124
1.50600026,-0.69419401,0.47974554,-1.24738754
1.25681493,-0.44756599,0.65292558,-0.97619498
1.16779142,-0.48171071,0.71679339,-0.78606541
1.39878153,-0.47335876,0.91674878,-0.94450672
1.39293961,-0.29526582,0.72121501,-1.15453357
1.08368069,-0.21223766,-0.04642699,-1.06167959
0.79853801,0.03095133,-0.07221976,-0.794663
0.95816639,-0.23925866,-0.34513184,-0.86123291
1.41754758,0.40949095,-0.37804833,-1.3033947
1.21996775,0.52469866,-0.40089336,-1.02581536
0.97455602,0.40212158,-0.28028145,-0.84231821
0.86966184,0.24097818,-0.20953556,-0.80891043
0.9141325,0.18030375,-0.19700764,-0.87425212
1.74195093,0.62737845,1.35645412,-0.89488634
7.70906896,-7.38557579,1.17639601,-1.87059002
10.74116753,5.1145837,-4.94189495,-8.04930976
8.87408189,1.31297487,-6.50788463,-5.88836683
3.45632552,-2.20663298,-1.36308654,-2.28450259
2.55264797,-1.21962961,2.13834355,0.67527931
0.60702766,-0.17170616,0.43135339,-0.39106754
0.73062713,-0.11864675,-0.04544441,-0.71949549
1.61536243,-0.43282726,-0.42128193,-1.49819154
1.29101928,-0.10832964,-0.00736936,-1.28644517
1.58473734,-0.50774912,-0.90397522,-1.1985041
1.93902753,-0.70500241,-0.06902637,-1.80500269
1.72218072,-0.82021012,-0.12970079,-1.50875429
1.27993025,0.05453329,-0.41784289,-1.20857556
0.70380166,-0.39278706,-0.58389921,-0.0108084
0.91009653,-0.56523016,-0.6384325,-0.31811084
0.81150926,-0.46156778,-0.63892379,-0.19307732
0.9243915,-0.31123277,-0.8401074,-0.22771332
1.19233576,-0.00687807,-1.15920083,-0.27905322
1.39589419,0.06583298,-1.34490878,-0.36797687
1.20668286,-0.16531938,-1.16730713,-0.25719078
0.95973274,-0.0729567,-0.94033074,-0.17760165
1.06017524,0.08302816,-1.0449757,-0.15844131
1.24867299,0.27807064,-1.19088909,-0.25227787
1.33489721,0.04691828,-1.31813343,-0.20560523
1.27696879,-0.0994864,-1.25917852,-0.18767312
0.9204078,0.07467621,-0.88407794,-0.2449085
1.04260514,0.18472537,-0.96047367,-0.3610988
1.20805083,0.16089776,-1.14028613,-0.36502912
1.00301629,0.23287188,-0.92780283,-0.3016526
1.12510967,0.07983477,-1.10638706,-0.18816441
1.12067009,-0.00171952,-1.1174411,-0.08499332
0.99635432,-0.01154534,-0.99167064,-0.09580172
1.04118601,0.02751229,-1.04079973,-0.00687807
1.11433915,0.06288523,-1.1125282,-0.00884324
1.56175316,-0.09457349,-1.55886596,0.0081063
1.21624299,-0.03930327,-1.21226024,0.09015188
1.15022902,-0.02481019,-1.13758403,0.16826713
1.16776946,-0.09211704,-1.13168854,0.27291208
1.16121762,-0.03046003,-1.13537322,0.24171511
1.13784317,-0.02603842,-1.11129997,0.24294334
1.11729889,-0.06509604,-1.09435043,0.2156767
1.07382793,-0.15254582,-1.03809763,0.22845026
1.05948564,-0.14886114,-1.0341673,0.17563649
1.07135377,-0.14566775,-1.04178231,0.20314878
1.10373362,-0.21813315,-1.06069701,0.21346589
1.14852137,-0.20585088,-1.03981715,0.44216179
1.17304846,-0.1724431,-1.06045136,0.47090231
1.09814864,-0.16359986,-0.96538658,0.49718637
1.05278362,-0.19651635,-0.91871394,0.47507828
1.0527298,-0.36822251,-0.89562327,0.41292998
1.04376279,-0.34169281,-0.89586892,0.41243869
0.98342129,-0.10341673,-0.89807973,0.38713721
0.98656545,-0.12871821,-0.89439505,0.39598045
1.09874039,-0.35471201,-0.91281845,0.49816895
1.18690602,-0.50160799,-0.92780283,0.54435029
1.14887574,-0.43159904,-0.95212172,0.47655215
1.10725485,-0.42079064,-0.97791449,0.3043547
1.09070041,-0.45297019,-0.95285866,0.27659676
1.06487071,-0.48416716,-0.90839684,0.27266644
1.0418537,-0.46893714,-0.87744551,0.30926761
1.03371156,-0.4362663,-0.86590017,0.3583967
1.05248858,-0.46230472,-0.85803952,0.39720868
0.96338236,-0.60355085,-0.66520785,0.34832523
1.06008588,-0.6006031,-0.77329184,0.40629756
1.08505361,-0.67503367,-0.7298126,0.43479243
1.03594032,-0.67159463,-0.6919832,0.37853962
0.99675089,-0.71212613,-0.62000909,0.31933907
1.00474582,-0.74725343,-0.60084875,0.30017873
1.05120409,-0.78753928,-0.63229136,0.29158114
1.07285611,-0.78950444,-0.67110334,0.27807064
1.07345722,-0.74184923,-0.7298126,0.26333191
1.06645451,-0.71482823,-0.74160358,0.27635112
1.08653979,-0.75339456,-0.7379189,0.26161239
1.08746348,-0.78066121,-0.72146066,0.22943284
1.10322465,-0.8157885,-0.70917838,0.2205896
1.11408876,-0.84600289,-0.70426548,0.17170616
1.07440353,-0.80424317,-0.6946853,0.15795002
1.05783828,-0.84133563,-0.63523911,0.08744978
1.087969,-0.91183587,-0.58733825,0.08523897
1.07219442,-0.87769116,-0.61583312,-0.00294775
1.04487456,-0.82561432,-0.63966072,-0.03095133
1.07243417,-0.84477467,-0.66054059,-0.01252792
1.11962586,-0.88702568,-0.68191174,-0.04175972
1.1123515,-0.87572599,-0.68043787,-0.08622155
1.13335719,-0.89071036,-0.68780723,-0.13436806
