Svtotal,Ax,Ay,Az
1.01416415,0.14861549,1.00321598,0.00024565
1.00693781,0.14566775,0.9963379,0.00393033
0.99564418,0.15303711,0.98380999,0.00221081
0.98373939,0.18742747,0.96464964,0.04544441
0.98941147,0.19577942,0.96907126,0.03881198
1.00452341,0.23508269,0.97644062,0.01916034
1.01673834,0.26185804,0.98233611,-0.01424744
1.01117892,0.22795897,0.98503821,-0.01473873
1.02363874,0.23778479,0.99510968,-0.0324252
1.01761647,0.21248331,0.9936358,-0.05551587
1.07104372,0.24539979,1.04178231,-0.04004021
1.0728936,0.26824482,1.03834327,-0.03144262
1.05812385,0.29747663,1.0152526,-0.01989728
1.0693593,0.33972764,1.01377873,-0.01916034
1.06554165,0.32425198,1.01500696,0.00073694
1.1515498,0.18669053,1.13611016,0.0216168
1.27278515,0.3448862,1.22429687,-0.04618134
0.89677537,-0.0648504,0.89439505,0.00761501
0.75202569,-0.13068337,0.72883002,0.13142031
1.02585859,-0.04175972,1.0098484,0.17563649
1.04620407,0.04397053,1.03220214,0.16482809
1.0429434,0.13142031,1.02507842,0.14026355
1.15995043,0.35446637,1.10073721,0.09064317
1.07511469,0.29403759,1.02974568,0.09506479
0.96451912,0.27905322,0.90987071,0.15672179
0.86320066,0.18988392,0.82192964,0.18300585
0.88637705,0.07050024,0.86098727,0.19848152
0.91999255,0.06337652,0.90127312,0.17342568
0.98668716,0.1643368,0.95605205,0.18030375
0.94547408,0.25006706,0.89709715,0.16310857
0.91512382,0.23655656,0.86761969,0.16949535
0.91716353,0.23508269,0.86860227,0.17735601
0.94485343,0.19799022,0.89562327,0.22673074
1.00317775,0.29231807,0.9427872,0.17907553
1.0069026,0.32154988,0.94303284,0.1454221
1.00665804,0.3340778,0.94033074,0.13240289
1.01501626,0.36159009,0.93050493,0.18349714
1.07558368,0.51069687,0.92706589,0.1913578
1.11212863,0.57014307,0.91797701,0.26284062
2.03731108,0.53280496,1.9499335,0.25399738
1.14282372,-0.03291649,1.14225129,0.01498437
0.98895649,0.02235374,0.97275594,0.17686472
0.77179373,0.0054042,0.72809308,0.25596255
0.75187069,0.04397053,0.72539098,0.19283167
0.69549634,0.13707016,0.6811748,0.03046003
0.97680346,0.22132654,0.93640042,-0.16826713
1.11363758,0.1021885,1.10859787,-0.02751229
1.01852088,0.02898616,1.0179547,0.01768647
0.86422985,-0.04470747,0.8590221,0.08351945
0.89473002,-0.05207683,0.88751697,0.10071463
0.95073128,-0.01547566,0.94868269,0.06042878
1.05581822,0.08769542,1.05185377,0.02579277
0.95744021,0.07320234,0.95408689,-0.0324252
0.94709296,0.10046898,0.94155897,-0.0189147
0.96017536,0.14493081,0.94917398,0.00073694
0.98271897,0.27684241,0.9427872,0.01572131
0.99849012,0.339482,0.93861122,0.02726664
1.00931108,0.37927656,0.93492654,0.02775793
1.02892275,0.37534623,0.95801721,0.00049129
1.07804112,0.38738286,1.00567243,0.027021
1.08496299,0.37313542,1.0179547,0.04102279
1.03570188,0.30902196,0.98847725,0.00982582
1.0406482,0.27831628,1.00272468,0.00564985
1.00028319,0.17391697,0.98356434,0.054042
1.05563838,0.088678,1.05087119,0.04667263
1.06526076,0.11225997,1.0584862,0.04225102
1.04682541,0.2773337,1.00935711,0.01129969
1.04676094,0.43847711,0.94327849,-0.11692723
1.16659412,0.27487725,1.13340806,-0.02775793
1.24940412,0.26873611,1.2201209,0.00982582
1.33935447,0.22304606,1.32034424,-0.02849487
1.01131353,0.02947745,1.01058534,-0.02456454
0.86321573,-0.07393928,0.85975904,-0.02210809
0.8745147,-0.17121487,0.84723112,0.13289418
1.06274683,-0.04691828,1.04620393,0.18079504
1.15891015,0.23557398,1.12702128,0.1319116
1.02334457,0.2557169,0.98135353,0.13707016
1.01560253,0.25645384,0.97054513,0.15401969
0.90946451,0.17293439,0.87376083,0.18374279
0.88593689,0.11373384,0.8644263,0.15721308
0.88862223,0.04470747,0.87130437,0.16875842
0.88494331,0.02186244,0.87081308,0.15598485
0.88711551,0.06853508,0.87449776,0.13240289
0.89999987,0.11913804,0.87990196,0.14689597
0.9211403,0.1913578,0.8887452,0.14836985
0.92031866,0.20806169,0.88358665,0.15156324
0.92087233,0.23925866,0.87425212,0.16261728
0.95087192,0.31147842,0.87548035,0.20167491
0.98233184,0.3178652,0.90274699,0.22132654
1.05522934,0.34390362,0.95457818,0.28986162
1.04356488,0.44461825,0.92952234,0.16531938
1.03874037,0.43258162,0.91895959,0.21764186
1.04092451,0.44289873,0.90987071,0.24392592
1.29862394,0.51659236,1.10319367,0.45002245
1.72410458,0.46991973,1.650983,0.16114341
1.66703353,0.24392592,1.6158557,0.32941053
1.46669898,0.01129969,1.44832551,0.23115236
1.06380328,-0.04716392,1.05652104,0.11496207
0.87054148,0.00859759,0.85754823,0.14959807
0.81628963,0.04544441,0.80154107,0.14763291
0.73232575,0.06509604,0.71875856,0.12429659
0.75705537,0.09580172,0.74774472,0.06951766
0.98256917,0.19799022,0.95678899,-0.10390802
1.14802503,0.32990183,1.09435043,-0.10734706
0.89644169,0.18226892,0.87769116,0.00663243
1.0023672,0.06927201,0.99830307,0.05772668
1.02634795,0.08769542,1.02237632,0.02112551
1.05023886,0.11815546,1.04350183,-0.01203663
1.02995544,0.15966954,1.01500696,-0.07123718
0.9404541,0.2422064,0.90815119,-0.0324252
1.00962311,0.32523456,0.95457818,-0.04839215
1.03280497,0.28912468,0.99142499,-0.01301921
1.01875268,0.33751683,0.96121061,-0.00368468
1.03363042,0.33284957,0.97791449,-0.03586423
1.04671932,0.31933907,0.99584661,-0.04397053
1.01766331,0.23852172,0.98651209,-0.07443057
1.02168643,0.11471642,1.01402437,-0.04937473
1.03656391,0.05846361,1.03367601,0.05060296
0.99563103,0.26161239,0.96047367,0.01817776
1.07897055,0.35520331,1.00763759,-0.15058065
1.2679958,0.29870485,1.23215752,-0.01940599
1.21878155,0.16237164,1.20439959,-0.09211704
1.23565206,0.13313983,1.2282272,-0.02382761
1.20960746,0.16900406,1.19678458,-0.04790086
1.06059293,0.13952661,1.05136248,0.00515855
0.97551214,-0.15598485,0.95138479,0.14886114
1.07520361,0.09359091,1.06290782,0.13240289
1.23485115,0.42987952,1.14691856,0.15696744
1.19540162,0.43307291,1.10122851,0.16949535
1.05500444,0.33235828,0.99756613,0.08622155
1.03860057,0.31958472,0.98503821,0.07909783
1.01128209,0.30877632,0.95752592,0.10243415
0.94625442,0.30361776,0.89071036,0.09924076
0.91108489,0.30091566,0.85386355,0.1021885
0.89947434,0.23876737,0.85877646,0.12061191
0.8977045,0.2178875,0.86270678,0.11889239
0.90025424,0.17268874,0.87621728,0.11348819
0.98100277,0.23852172,0.94426107,0.11766417
1.02741624,0.36527477,0.94868269,0.14886114
1.01387045,0.36723993,0.93222444,0.15500227
1.00661356,0.38050479,0.92215298,0.1346137
0.97085896,0.40899966,0.87646293,0.08425639
0.98638464,0.41833418,0.8887452,0.08990623
1.00266938,0.39819126,0.9130641,0.11447077
0.97457908,0.31000454,0.91773136,0.10710141
0.9738271,0.29452888,0.91748572,0.14075484
0.87731793,0.23999559,0.83814224,0.09801253
0.9137666,0.2800358,0.86196985,0.11643594
1.26937518,0.3232694,1.22085783,0.12773563
1.78884295,0.27143821,1.76299732,-0.1346137
0.89702019,0.05600716,0.89513198,-0.01572131
0.95472371,0.34292103,0.89021907,-0.03758375
1.00228026,0.35741411,0.93443525,-0.06042878
1.02521039,0.15770437,1.0071463,-0.10882093
1.01459584,0.25399738,0.94966527,-0.25104964
1.0488145,0.2962484,0.9774232,-0.23852172
1.07476191,0.3070568,1.00665501,-0.2178875
1.01059746,0.25547126,0.95580641,-0.20609652
1.03391401,0.18398843,0.99560097,-0.20953556
1.02165622,0.13780709,1.00149646,-0.14763291
1.06643442,0.16900406,1.04055408,-0.16114341
1.04073784,0.17563649,1.01697212,-0.13436806
1.0059038,0.14566775,0.98602079,-0.13559628
1.05141052,0.13485935,1.03465859,-0.12945515
1.06734346,0.15819566,1.05332764,-0.06853508
1.03152256,0.15795002,1.01500696,-0.0940822
1.02458036,0.16335422,1.00591808,-0.10587318
1.06247355,0.20339442,1.0395715,-0.08229122
1.05719131,0.23090671,1.02385019,-0.12675305
1.05379781,0.29059856,1.00395291,-0.1346137
1.08013076,0.22525687,1.05013425,-0.11471642
1.0223322,0.11987497,1.01058534,-0.09752124
1.03987935,0.027021,1.03834327,-0.04962038
1.02549584,-0.00663243,1.02507842,-0.02849487
0.98340828,-0.0486378,0.98209047,-0.01498437
1.0174235,-0.11987497,1.00542678,0.0994864
1.02013316,-0.13633322,1.00640937,0.09604737
1.00221383,-0.04642699,0.9936358,0.12233143
0.96980913,0.13535064,0.95236737,0.12331401
0.96786557,0.03856633,0.94401542,0.21002685
1.04433827,0.00098258,1.01942857,0.22673074
1.01107609,-0.01154534,0.98921419,0.20879862
0.96446747,-0.01473873,0.94720882,0.18104069
0.95103611,0.10906658,0.92952234,0.16900406
1.00152972,0.13682451,0.96489529,0.23090671
0.91877795,0.05207683,0.8995536,0.17956682
0.97887895,0.05527022,0.94426107,0.25203222
0.94045898,-0.02235374,0.9049578,0.25497997
0.84175882,0.04667263,0.81554286,0.20314878
0.8480158,0.09309962,0.80792785,0.24024124
0.86663022,-0.01989728,0.8320011,0.24171511
0.89613187,-0.08179993,0.87326954,0.18374279
0.82225836,-0.06902637,0.79982155,0.1778473
0.74526511,-0.22550251,0.69370272,0.15279146
0.67020216,-0.19749893,0.59544455,0.23581962
0.65238564,-0.16654761,0.516838,0.36159009
0.75136953,-0.16581067,0.5762842,0.45272455
0.8366917,-0.14910678,0.71310871,0.41145611
0.99397783,0.13043773,0.94598059,0.27585983
1.0906969,0.46353294,0.97128207,0.17711036
0.95761481,0.67675319,0.67503367,0.05797232
0.77085089,0.43037081,0.55122837,0.32425198
1.07014355,0.30017873,0.9963379,0.24982141
1.16540237,0.60625294,0.95163043,0.29158114
1.29644405,0.70647628,1.04399312,0.30288083
1.62691709,-0.57112565,1.50629784,0.22746768
1.6489707,-0.59470761,1.52644076,0.18816441
1.55140166,0.11766417,1.52742334,0.2449085
1.00829006,0.17096923,0.98380999,0.13977226
0.8742086,-0.42693177,0.74184923,0.1778473
0.69247101,-0.22009831,0.64776702,-0.10710141
1.04247537,0.28249226,1.00321598,-0.02259938
1.49455145,0.29133549,-1.21889267,0.81431463
1.37791174,0.22845026,0.3800135,1.30462293
1.78569586,0.10587318,1.21889267,1.3006926
3.39753928,-1.16534197,2.20073749,2.31127794
2.90999035,-1.16018341,0.36674864,2.64339058
0.96485489,-0.25350609,-0.33113005,0.87007615
1.13698172,1.01451567,-0.4767978,-0.19012957
0.87075699,-0.81529721,-0.14222871,-0.27070127
2.12762245,-0.60969198,0.89120165,1.83325192
1.44278552,0.77746782,-0.80301494,0.91232716
1.49211187,0.61067456,-0.99928565,0.92460943
1.82867873,0.47483263,-1.07838348,1.39845949
1.95962631,0.24196076,-0.98405563,1.67726706
1.30459687,0.48318458,-0.02677535,1.21152331
1.13046498,0.44486389,0.04347924,1.03834327
0.9889441,0.3746093,0.12847256,0.90618603
0.85185355,0.26284062,0.09260833,0.80498011
0.70660076,0.39229577,-0.15205453,0.56768661
0.8975126,0.55908902,-0.2156767,0.6681556
1.29155583,0.72023243,-0.21346589,1.05062555
1.31720119,0.76150086,-0.28470306,1.03637811
1.45292099,0.97226465,-0.51634671,0.9481914
1.29485928,1.01746341,-0.4119474,0.68682465
1.44752807,1.04669522,-0.67012076,0.74209487
1.4079376,0.77132668,-0.83666837,0.82905336
1.20227737,0.5038188,-0.79761074,0.74528826
0.87130437,0.35225556,-0.47728909,0.63818685
0.95032427,0.28765081,-0.38787415,0.8184906
1.14850206,0.17416262,-0.4767978,1.03023697
1.38977717,0.33432344,-0.67012076,1.17074617
1.14136687,0.43037081,-0.35741411,0.99486403
0.96365895,0.35937928,-0.20290313,0.87081308
1.00387781,0.22255477,0.00073694,0.97889708
1.03043604,0.34095587,0.0513399,0.97103642
1.10700106,0.21125508,-0.05969184,1.08501591
1.13974947,0.02603842,-0.08720413,1.13611016
1.0821394,-0.08744978,0.0216168,1.07838348
1.0987179,-0.11324255,0.05158554,1.09164833
1.16228543,-0.11201432,0.13780709,1.14863808
1.05050685,0.03537294,0.15377405,1.03858892
1.11240312,0.30754809,-0.09973205,1.06438169
1.07089475,0.34807959,-0.13682451,1.00346162
1.06105461,0.47360441,-0.11864675,0.94205026
1.05181542,0.43945969,-0.0724654,0.95285866
1.95421417,1.10786093,-0.0994864,1.60676682
1.18930746,0.6195178,-0.0967843,1.01058534
1.13163642,0.54852627,-0.01424744,0.98970548
1.04495304,0.50529267,-0.13780709,0.90422086
1.16518648,0.59323374,-0.20658781,0.98135353
1.15966173,0.61558747,-0.20364007,0.96145625
1.09479887,0.58193405,-0.13805274,0.91699443
1.03402971,0.51782059,-0.12822692,0.88579746
1.0841698,0.57824936,-0.10464496,0.91109894
1.05826946,0.52445301,-0.13215725,0.90962506
1.10300366,0.46132214,-0.14615904,0.99117935
1.06349069,0.47851732,-0.01301921,0.94966527
1.02206836,0.43503807,-0.00294775,0.92485508
1.04046321,0.37018768,-0.02652971,0.972019
1.0798412,0.37780269,-0.05035732,1.01033969
1.07227487,0.33899071,-0.06018313,1.01549825
1.07222557,0.3660117,-0.06190265,1.00591808
1.05159748,0.36330961,-0.05969184,0.98503821
1.0254678,0.37436365,-0.04028585,0.95384124
1.11966706,0.29133549,-0.00564985,1.08108558
1.01333445,0.35078169,-0.05355071,0.94917398
1.05899678,0.37976785,-0.14468516,0.97791449
1.09480075,0.35864234,-0.10046898,1.02950004
1.02857624,0.39106754,-0.03610988,0.95064785
1.04469367,0.3768201,-0.04126843,0.97349288
1.04735867,0.32818231,-0.054042,0.99314451
1.08392344,0.34734265,-0.06681556,1.02458713
1.07498298,0.34464055,-0.02407325,1.0179547
1.07659466,0.33555167,0.01424744,1.02286761
1.12363836,0.34660572,-0.00933453,1.06880331
1.10026073,0.30386341,-0.02112551,1.05725797
0.97446759,0.25473432,0.00368468,0.94057639
1.06011422,0.24711931,-0.12454224,1.0233589
1.05837474,0.23066107,-0.03168826,1.03244778
1.06820122,0.24024124,0.00859759,1.04079973
1.08416738,0.20364007,-0.03954892,1.06413604
1.08289743,0.19921845,-0.03340778,1.0638904
1.05941464,0.23188929,-0.03340778,1.03318472
1.06940768,0.24810189,-0.06656991,1.03809763
1.07229592,0.24589109,-0.0594462,1.04202795
1.06493021,0.26357756,-0.01326485,1.03171085
1.0501677,0.27217515,-0.0054042,1.01427002
1.04800817,0.26849047,-0.02186244,1.01279615
1.06532986,0.26062981,-0.0324252,1.03244778
1.07877046,0.27536854,-0.03979456,1.0422736
1.06356096,0.2935463,-0.02726664,1.02188503
1.05186335,0.29059856,-0.03439036,1.01033969
1.06248522,0.28642258,-0.03979456,1.02237632
1.03625528,0.44633776,-0.14198306,0.92436379
1.13651478,0.34390362,-0.18914699,1.0665925
1.10258647,0.1562305,-0.02579277,1.09115704
1.07272118,0.27045563,-0.04446182,1.03711505
1.07689386,0.27143821,-0.13805274,1.03293907
1.04565917,0.2638232,-0.08646719,1.00812888
1.06611459,0.26406885,-0.0805717,1.02974568
1.05526865,0.26062981,-0.06263959,1.0206568
1.08008358,0.24834754,-0.11594465,1.04473005
1.06737119,0.24392592,-0.06460475,1.03711505
1.05403527,0.23090671,-0.03660117,1.02778052
